File: results/rsa/mean_tga_diffs.csv
dorsal_ventral,ventral_dorsal
0.0159435,-0.0159435
0.0884893,-0.0884893
0.0076223,-0.0076223
-0.0940728,0.0940728
0.00381064,-0.00381064
0.00101437,-0.00101437
-0.00281672,0.00281672
-0.105412,0.105412
0.00262253,-0.00262253
-0.0344328,0.0344328
-0.0579535,0.0579535
-0.126338,0.126338
-0.206287,0.206287
-0.151873,0.151873
-0.0534662,0.0534662
-0.0470727,0.0470727
-0.159831,0.159831
-0.179051,0.179051
-0.170228,0.170228
-0.0521033,0.0521033
0.0768561,-0.0768561
0.0401641,-0.0401641
-8.56683e-05,8.56683e-05
0.0148918,-0.0148918
0.0667127,-0.0667127
-0.00537621,0.00537621
-0.0347854,0.0347854
-0.037242,0.037242
-0.0535442,0.0535442
-0.0979076,0.0979076
-0.126178,0.126178
-0.161024,0.161024
-0.150211,0.150211
-0.102071,0.102071
-0.0846477,0.0846477
-0.130993,0.130993
-0.164329,0.164329
0.146385,-0.146385
0.121988,-0.121988
0.0362236,-0.0362236
0.0845033,-0.0845033
0.0817351,-0.0817351
0.080206,-0.080206
-0.0219694,0.0219694
0.0171451,-0.0171451
-0.0648774,0.0648774
-0.140815,0.140815
-0.188978,0.188978
-0.260175,0.260175
-0.157511,0.157511
-0.0196928,0.0196928
-0.0249945,0.0249945
-0.163779,0.163779
-0.227968,0.227968
-0.27414,0.27414
-0.123327,0.123327
-0.018561,0.018561
-0.0469376,0.0469376
-0.0697631,0.0697631
-0.076855,0.076855
-0.0714361,0.0714361
-0.103775,0.103775
-0.0940969,0.0940969
-0.0801232,0.0801232
-0.0708874,0.0708874
-0.0961463,0.0961463
-0.110174,0.110174
-0.131293,0.131293
-0.124765,0.124765
-0.0851082,0.0851082
-0.100739,0.100739
-0.172501,0.172501
-0.2147,0.2147
0.165343,-0.165343
0.139815,-0.139815
0.12191,-0.12191
0.137304,-0.137304
0.176143,-0.176143
0.0325029,-0.0325029
-0.0232562,0.0232562
-0.00406663,0.00406663
-0.107147,0.107147
-0.158967,0.158967
-0.141499,0.141499
-0.0352649,0.0352649
0.0304701,-0.0304701
0.0441725,-0.0441725
-0.0670479,0.0670479
-0.171118,0.171118
-0.184887,0.184887
-0.183247,0.183247
-0.0439321,0.0439321
-0.0327218,0.0327218
-0.0540225,0.0540225
-0.0842952,0.0842952
-0.143807,0.143807
-0.148271,0.148271
-0.112109,0.112109
-0.0804089,0.0804089
-0.0595599,0.0595599
-0.0390946,0.0390946
-0.0339917,0.0339917
-0.0293278,0.0293278
-0.0202035,0.0202035
-0.00188861,0.00188861
-0.00603375,0.00603375
-0.0764398,0.0764398
-0.152385,0.152385
0.0733558,-0.0733558
0.14931,-0.14931
0.118257,-0.118257
0.160121,-0.160121
0.186245,-0.186245
0.0834932,-0.0834932
-0.0228409,0.0228409
-0.0646187,0.0646187
-0.143351,0.143351
-0.193704,0.193704
-0.0307001,0.0307001
0.0927444,-0.0927444
0.0970615,-0.0970615
0.0249148,-0.0249148
-0.0801856,0.0801856
-0.138266,0.138266
-0.0960763,0.0960763
-0.0460606,0.0460606
0.029308,-0.029308
0.0160257,-0.0160257
-0.038811,0.038811
-0.084897,0.084897
-0.166027,0.166027
-0.170384,0.170384
-0.142678,0.142678
-0.127148,0.127148
-0.105412,0.105412
-0.056804,0.056804
-0.0157147,0.0157147
0.0153916,-0.0153916
0.0477546,-0.0477546
0.0459708,-0.0459708
0.0216099,-0.0216099
-0.0460622,0.0460622
-0.108617,0.108617
0.058103,-0.058103
0.115272,-0.115272
0.125648,-0.125648
0.166945,-0.166945
0.201874,-0.201874
0.0516553,-0.0516553
-0.087086,0.087086
-0.0619474,0.0619474
-0.177678,0.177678
-0.095075,0.095075
0.0984522,-0.0984522
0.121855,-0.121855
0.0756653,-0.0756653
-0.0416019,0.0416019
-0.0425941,0.0425941
-0.0164059,0.0164059
-0.0271899,0.0271899
0.0364163,-0.0364163
0.0239236,-0.0239236
0.000834711,-0.000834711
-0.041879,0.041879
-0.0990601,0.0990601
-0.122259,0.122259
-0.112297,0.112297
-0.126377,0.126377
-0.126417,0.126417
-0.101081,0.101081
-0.0504527,0.0504527
0.00431579,-0.00431579
0.0289268,-0.0289268
0.0184684,-0.0184684
-0.0185544,0.0185544
-0.0451576,0.0451576
-0.0692411,0.0692411
-0.158212,0.158212
0.0589562,-0.0589562
0.0940262,-0.0940262
0.106633,-0.106633
0.169653,-0.169653
0.0380456,-0.0380456
-0.149362,0.149362
-0.0857011,0.0857011
-0.17,0.17
-0.0821409,0.0821409
0.120098,-0.120098
0.119141,-0.119141
0.0694496,-0.0694496
-0.00519819,0.00519819
0.0453491,-0.0453491
0.0765693,-0.0765693
0.0162539,-0.0162539
0.0661958,-0.0661958
0.0165083,-0.0165083
0.011293,-0.011293
-0.019767,0.019767
-0.0376126,0.0376126
-0.0237893,0.0237893
-0.0281202,0.0281202
-0.0719702,0.0719702
-0.0904149,0.0904149
-0.0954034,0.0954034
-0.0581096,0.0581096
-0.00429521,0.00429521
0.00897266,-0.00897266
-0.0209011,0.0209011
-0.0652258,0.0652258
-0.0637813,0.0637813
-0.0693226,0.0693226
-0.163215,0.163215
0.0392808,-0.0392808
0.105027,-0.105027
0.0727237,-0.0727237
0.118818,-0.118818
-0.107362,0.107362
-0.104364,0.104364
-0.159209,0.159209
-0.133714,0.133714
0.0618245,-0.0618245
0.100945,-0.100945
0.03363,-0.03363
-0.00232341,0.00232341
0.0229598,-0.0229598
0.08875,-0.08875
0.026887,-0.026887
0.0771121,-0.0771121
0.0300536,-0.0300536
-0.0161546,0.0161546
0.00225881,-0.00225881
0.000592864,-0.000592864
0.0592874,-0.0592874
0.0729942,-0.0729942
0.0328236,-0.0328236
-0.00333607,0.00333607
-0.0301424,0.0301424
-0.0320135,0.0320135
0.000623423,-0.000623423
0.0281497,-0.0281497
0.0330558,-0.0330558
0.00156167,-0.00156167
0.00367965,-0.00367965
0.014848,-0.014848
-0.0391471,0.0391471
0.032257,-0.032257
0.0923727,-0.0923727
0.0388614,-0.0388614
0.0694114,-0.0694114
-0.0757787,0.0757787
-0.0221428,0.0221428
-0.0762444,0.0762444
-0.0180003,0.0180003
0.0823803,-0.0823803
0.0720485,-0.0720485
0.0379509,-0.0379509
0.0153243,-0.0153243
0.0251269,-0.0251269
0.0708864,-0.0708864
-0.00697027,0.00697027
0.0727643,-0.0727643
0.0497231,-0.0497231
-0.0390542,0.0390542
-0.0162281,0.0162281
-0.013723,0.013723
0.0811058,-0.0811058
0.117085,-0.117085
0.0664552,-0.0664552
0.0279159,-0.0279159
-0.0114113,0.0114113
-0.0471781,0.0471781
-0.0200657,0.0200657
0.00560021,-0.00560021
0.0222096,-0.0222096
0.0220343,-0.0220343
0.0355154,-0.0355154
0.0265254,-0.0265254
-0.0412816,0.0412816
0.0582614,-0.0582614
0.0457672,-0.0457672
0.0300922,-0.0300922
-0.0250882,0.0250882
0.044954,-0.044954
0.00829228,-0.00829228
0.0389164,-0.0389164
0.0325205,-0.0325205
0.0560133,-0.0560133
0.0381896,-0.0381896
0.0769771,-0.0769771
-0.00678332,0.00678332
0.0601619,-0.0601619
0.0245424,-0.0245424
-0.0536848,0.0536848
0.0883906,-0.0883906
0.0394561,-0.0394561
0.0222368,-0.0222368
0.0259144,-0.0259144
0.0516724,-0.0516724
0.12547,-0.12547
0.103176,-0.103176
0.0558454,-0.0558454
0.0278999,-0.0278999
-0.0402603,0.0402603
-0.0735012,0.0735012
-0.047796,0.047796
-0.0262846,0.0262846
-0.00121754,0.00121754
0.0343247,-0.0343247
0.0620943,-0.0620943
0.0171109,-0.0171109
-0.0837478,0.0837478
0.0788371,-0.0788371
0.0246987,-0.0246987
-0.0532352,0.0532352
0.0409934,-0.0409934
-0.00193269,0.00193269
0.0628815,-0.0628815
0.023188,-0.023188
0.0588,-0.0588
0.0731371,-0.0731371
0.0865865,-0.0865865
0.0240316,-0.0240316
0.10287,-0.10287
0.0522441,-0.0522441
-0.0624309,0.0624309
0.0489214,-0.0489214
0.0571687,-0.0571687
0.0864383,-0.0864383
0.101824,-0.101824
0.114297,-0.114297
0.157218,-0.157218
0.10207,-0.10207
0.0665695,-0.0665695
0.0513916,-0.0513916
0.00519311,-0.00519311
-0.00985392,0.00985392
-0.00519981,0.00519981
-0.00117369,0.00117369
0.0126309,-0.0126309
0.06444,-0.06444
0.100878,-0.100878
0.076372,-0.076372
-0.00828273,0.00828273
0.0866881,-0.0866881
0.0281165,-0.0281165
-0.111029,0.111029
-0.0450166,0.0450166
0.0234311,-0.0234311
0.11547,-0.11547
0.116653,-0.116653
0.10213,-0.10213
0.072453,-0.072453
0.0201032,-0.0201032
0.0519609,-0.0519609
0.100475,-0.100475
-0.0165256,0.0165256
-0.00271536,0.00271536
0.0171236,-0.0171236
0.0565539,-0.0565539
0.1062,-0.1062
0.0893616,-0.0893616
0.142713,-0.142713
0.127888,-0.127888
0.0490071,-0.0490071
0.0287551,-0.0287551
0.014178,-0.014178
0.0242098,-0.0242098
0.0322556,-0.0322556
0.00699027,-0.00699027
-0.0168516,0.0168516
-0.01301,0.01301
0.0235564,-0.0235564
0.0589229,-0.0589229
0.0225655,-0.0225655
0.0482302,-0.0482302
0.000161894,-0.000161894
-0.146454,0.146454
-0.0778254,0.0778254
0.0437148,-0.0437148
0.137317,-0.137317
0.170818,-0.170818
0.132346,-0.132346
0.0860017,-0.0860017
0.0102208,-0.0102208
0.0266565,-0.0266565
0.099234,-0.099234
0.0382495,-0.0382495
0.0551285,-0.0551285
0.00840757,-0.00840757
0.0181352,-0.0181352
0.0539019,-0.0539019
0.039353,-0.039353
0.144508,-0.144508
0.149861,-0.149861
0.072522,-0.072522
0.0389631,-0.0389631
0.0187901,-0.0187901
0.0445867,-0.0445867
0.0616903,-0.0616903
0.034029,-0.034029
0.000991961,-0.000991961
-0.0242971,0.0242971
0.00965154,-0.00965154
0.061642,-0.061642
0.0360606,-0.0360606
0.0383583,-0.0383583
-0.174828,0.174828
-0.115043,0.115043
-0.0383358,0.0383358
0.10692,-0.10692
0.160232,-0.160232
0.180085,-0.180085
0.128649,-0.128649
0.0573584,-0.0573584
-0.0200389,0.0200389
0.0520901,-0.0520901
0.0999333,-0.0999333
0.0742036,-0.0742036
0.100682,-0.100682
-0.020027,0.020027
-0.0237189,0.0237189
-0.0402304,0.0402304
0.0620517,-0.0620517
0.161192,-0.161192
0.121199,-0.121199
0.0643975,-0.0643975
0.0465117,-0.0465117
0.02469,-0.02469
0.0629441,-0.0629441
0.0739154,-0.0739154
0.062738,-0.062738
0.0153917,-0.0153917
0.0188632,-0.0188632
0.0608186,-0.0608186
0.0910156,-0.0910156
0.0574656,-0.0574656
-0.200948,0.200948
-0.101102,0.101102
-0.0840038,0.0840038
0.0875569,-0.0875569
0.165108,-0.165108
0.165943,-0.165943
0.117077,-0.117077
0.0316204,-0.0316204
-0.0507104,0.0507104
0.00365896,-0.00365896
0.0941325,-0.0941325
0.120438,-0.120438
0.0920722,-0.0920722
-0.0369299,0.0369299
-0.101331,0.101331
-0.0923583,0.0923583
0.0252424,-0.0252424
0.117484,-0.117484
0.106817,-0.106817
0.0526621,-0.0526621
0.0461394,-0.0461394
0.047957,-0.047957
0.0676403,-0.0676403
0.0726907,-0.0726907
0.0789335,-0.0789335
0.0523839,-0.0523839
0.061907,-0.061907
0.0755485,-0.0755485
0.0976226,-0.0976226
0.105327,-0.105327
-0.107236,0.107236
-0.122973,0.122973
-0.0380857,0.0380857
0.145706,-0.145706
0.214348,-0.214348
0.17621,-0.17621
0.155477,-0.155477
0.025489,-0.025489
0.0620409,-0.0620409
0.0787285,-0.0787285
0.133901,-0.133901
0.08012,-0.08012
0.0137552,-0.0137552
-0.00405681,0.00405681
0.00194469,-0.00194469
0.0225928,-0.0225928
0.0558387,-0.0558387
0.0589349,-0.0589349
0.0369773,-0.0369773
0.0298832,-0.0298832
0.0649385,-0.0649385
0.102074,-0.102074
0.100324,-0.100324
0.0989282,-0.0989282
0.101324,-0.101324
0.0900861,-0.0900861
0.0861122,-0.0861122
0.0846478,-0.0846478
0.107697,-0.107697
-0.0675478,0.0675478
-0.140889,0.140889
-0.0708955,0.0708955
0.0843793,-0.0843793
0.210761,-0.210761
0.190175,-0.190175
0.149425,-0.149425
0.0497167,-0.0497167
0.107572,-0.107572
0.0853949,-0.0853949
0.148148,-0.148148
0.0509432,-0.0509432
0.0273924,-0.0273924
0.102697,-0.102697
0.154388,-0.154388
0.114139,-0.114139
0.0380691,-0.0380691
-0.00941979,0.00941979
-0.0121489,0.0121489
0.00633321,-0.00633321
0.0683801,-0.0683801
0.13091,-0.13091
0.136735,-0.136735
0.135531,-0.135531
0.156426,-0.156426
0.157508,-0.157508
0.143532,-0.143532
0.111505,-0.111505
0.146663,-0.146663
-0.0228708,0.0228708
-0.101605,0.101605
-0.049854,0.049854
0.0686292,-0.0686292
0.11974,-0.11974
0.108374,-0.108374
0.0294873,-0.0294873
0.0215818,-0.0215818
0.0419696,-0.0419696
0.105294,-0.105294
0.096689,-0.096689
-0.026295,0.026295
0.0650401,-0.0650401
0.24587,-0.24587
0.283837,-0.283837
0.156518,-0.156518
0.0359674,-0.0359674
0.0159439,-0.0159439
0.0205496,-0.0205496
0.0583959,-0.0583959
0.0973149,-0.0973149
0.113828,-0.113828
0.112961,-0.112961
0.168031,-0.168031
0.241363,-0.241363
0.266341,-0.266341
0.250978,-0.250978
0.221564,-0.221564
0.238236,-0.238236
-0.0088782,0.0088782
0.0213477,-0.0213477
0.0686367,-0.0686367
-0.0313334,0.0313334
0.0126379,-0.0126379
0.0897773,-0.0897773
0.120209,-0.120209
0.129287,-0.129287
0.107644,-0.107644
0.0393297,-0.0393297
-0.0640226,0.0640226
0.06893,-0.06893
0.263198,-0.263198
0.327704,-0.327704
0.177646,-0.177646
0.0398095,-0.0398095
0.0626252,-0.0626252
0.104946,-0.104946
0.139611,-0.139611
0.132694,-0.132694
0.110865,-0.110865
0.108892,-0.108892
0.210291,-0.210291
0.316223,-0.316223
0.359859,-0.359859
0.357983,-0.357983
0.312597,-0.312597
0.30587,-0.30587
0.0537965,-0.0537965
0.0624779,-0.0624779
-0.105136,0.105136
-0.124542,0.124542
0.00549535,-0.00549535
0.109886,-0.109886
0.077098,-0.077098
0.078992,-0.078992
-0.00455135,0.00455135
-0.0701815,0.0701815
0.0125111,-0.0125111
0.135313,-0.135313
0.229667,-0.229667
0.210294,-0.210294
0.0720388,-0.0720388
0.0620765,-0.0620765
0.113264,-0.113264
0.157017,-0.157017
0.150681,-0.150681
0.103592,-0.103592
0.0359125,-0.0359125
0.0756186,-0.0756186
0.195892,-0.195892
0.268943,-0.268943
0.314178,-0.314178
0.312236,-0.312236
0.312766,-0.312766
0.0397957,-0.0397957
0.027688,-0.027688
-0.150203,0.150203
-0.102356,0.102356
-0.0114117,0.0114117
0.0317451,-0.0317451
-0.0208434,0.0208434
0.0411936,-0.0411936
-0.0436766,0.0436766
-0.0521058,0.0521058
-0.0121802,0.0121802
0.0772365,-0.0772365
0.134804,-0.134804
0.16622,-0.16622
0.117399,-0.117399
0.107074,-0.107074
0.151037,-0.151037
0.179063,-0.179063
0.156114,-0.156114
0.0473504,-0.0473504
-0.0684794,0.0684794
-0.0627662,0.0627662
0.0624901,-0.0624901
0.141096,-0.141096
0.219402,-0.219402
0.329115,-0.329115
0.358713,-0.358713
-0.00317345,0.00317345
-0.180415,0.180415
-0.23612,0.23612
-0.0868162,0.0868162
-0.0275508,0.0275508
-0.0538452,0.0538452
-0.0349579,0.0349579
0.0464171,-0.0464171
-0.0041386,0.0041386
0.00858961,-0.00858961
0.0181159,-0.0181159
0.0875601,-0.0875601
0.163659,-0.163659
0.159431,-0.159431
0.14074,-0.14074
0.173534,-0.173534
0.229768,-0.229768
0.233242,-0.233242
0.16895,-0.16895
0.0170301,-0.0170301
-0.0832745,0.0832745
-0.00331267,0.00331267
0.0946254,-0.0946254
0.153682,-0.153682
0.263713,-0.263713
0.357151,-0.357151
0.385265,-0.385265
-0.242629,0.242629
-0.324013,0.324013
-0.176298,0.176298
-0.0833033,0.0833033
-0.121763,0.121763
-0.053533,0.053533
0.0572199,-0.0572199
0.0505378,-0.0505378
0.0794918,-0.0794918
0.0785459,-0.0785459
0.201858,-0.201858
0.304137,-0.304137
0.254881,-0.254881
0.230456,-0.230456
0.242557,-0.242557
0.292607,-0.292607
0.292673,-0.292673
0.225843,-0.225843
0.0731845,-0.0731845
-0.014684,0.014684
0.0731142,-0.0731142
0.152131,-0.152131
0.184003,-0.184003
0.286763,-0.286763
0.392868,-0.392868
0.40872,-0.40872
-0.374236,0.374236
-0.283592,0.283592
-0.101332,0.101332
-0.0419056,0.0419056
-0.112998,0.112998
0.0563882,-0.0563882
0.000733127,-0.000733127
0.0632795,-0.0632795
-0.002121,0.002121
0.107361,-0.107361
0.255738,-0.255738
0.32778,-0.32778
0.256783,-0.256783
0.233903,-0.233903
0.264131,-0.264131
0.293163,-0.293163
0.266504,-0.266504
0.157953,-0.157953
0.073945,-0.073945
0.0847212,-0.0847212
0.157947,-0.157947
0.179581,-0.179581
0.207462,-0.207462
0.326902,-0.326902
0.397302,-0.397302
-0.230657,0.230657
-0.192761,0.192761
0.00240166,-0.00240166
0.017077,-0.017077
-0.0588299,0.0588299
0.0711387,-0.0711387
-0.0114668,0.0114668
0.0113417,-0.0113417
-0.0962395,0.0962395
-0.0254748,0.0254748
0.153871,-0.153871
0.289182,-0.289182
0.229121,-0.229121
0.214827,-0.214827
0.228128,-0.228128
0.257369,-0.257369
0.244388,-0.244388
0.153659,-0.153659
0.0873515,-0.0873515
0.0900566,-0.0900566
0.120493,-0.120493
0.138363,-0.138363
0.156775,-0.156775
0.238265,-0.238265
0.301762,-0.301762
-0.0528606,0.0528606
0.138979,-0.138979
0.228154,-0.228154
0.126766,-0.126766
0.136648,-0.136648
0.129343,-0.129343
0.0128226,-0.0128226
-0.0842315,0.0842315
-0.205912,0.205912
-0.169569,0.169569
0.0871205,-0.0871205
0.100323,-0.100323
0.108199,-0.108199
0.0960752,-0.0960752
0.127545,-0.127545
0.17139,-0.17139
0.144522,-0.144522
0.0910097,-0.0910097
0.0725719,-0.0725719
0.0371143,-0.0371143
0.0176989,-0.0176989
-0.0057492,0.0057492
-0.00398352,0.00398352
0.0690376,-0.0690376
0.159513,-0.159513
0.194843,-0.194843
0.330298,-0.330298
0.25589,-0.25589
0.253337,-0.253337
0.226543,-0.226543
0.0668617,-0.0668617
-0.0307796,0.0307796
-0.2058,0.2058
-0.254852,0.254852
0.0221633,-0.0221633
0.106823,-0.106823
0.111134,-0.111134
0.0951174,-0.0951174
0.148721,-0.148721
0.209263,-0.209263
0.185805,-0.185805
0.144825,-0.144825
0.147718,-0.147718
0.0768896,-0.0768896
0.0082371,-0.0082371
-0.0312247,0.0312247
-0.0579556,0.0579556
0.00378471,-0.00378471
0.103073,-0.103073
0.245968,-0.245968
0.318195,-0.318195
0.265499,-0.265499
0.263273,-0.263273
0.11097,-0.11097
0.0205084,-0.0205084
-0.090731,0.090731
-0.231934,0.231934
-0.152028,0.152028
0.123393,-0.123393
0.170107,-0.170107
0.122757,-0.122757
0.169007,-0.169007
0.245199,-0.245199
0.259035,-0.259035
0.177501,-0.177501
0.167583,-0.167583
0.159962,-0.159962
0.035398,-0.035398
-0.016864,0.016864
-0.0421604,0.0421604
-0.0454028,0.0454028
0.00478074,-0.00478074
0.143265,-0.143265
0.304758,-0.304758
0.245628,-0.245628
0.215222,-0.215222
0.0936878,-0.0936878
0.0198127,-0.0198127
-0.0446536,0.0446536
-0.181204,0.181204
-0.0668295,0.0668295
0.198319,-0.198319
0.227867,-0.227867
0.159412,-0.159412
0.211845,-0.211845
0.283478,-0.283478
0.289665,-0.289665
0.177468,-0.177468
0.142008,-0.142008
0.142618,-0.142618
0.0408945,-0.0408945
-7.61338e-05,7.61338e-05
0.00895691,-0.00895691
0.00816666,-0.00816666
0.0378924,-0.0378924
0.21015,-0.21015
0.222091,-0.222091
0.19246,-0.19246
0.103587,-0.103587
0.0754491,-0.0754491
0.0314872,-0.0314872
-0.120294,0.120294
-0.13155,0.13155
0.137492,-0.137492
0.227383,-0.227383
0.167331,-0.167331
0.112841,-0.112841
0.199787,-0.199787
0.25002,-0.25002
0.192206,-0.192206
0.0997562,-0.0997562
0.104336,-0.104336
0.0863613,-0.0863613
0.00556373,-0.00556373
0.00639416,-0.00639416
0.0169283,-0.0169283
0.0176194,-0.0176194
0.0786751,-0.0786751
0.0816354,-0.0816354
0.0758676,-0.0758676
0.00996917,-0.00996917
0.0425836,-0.0425836
0.0149153,-0.0149153
-0.1104,0.1104
-0.0462622,0.0462622
0.19972,-0.19972
0.221696,-0.221696
0.140752,-0.140752
0.063973,-0.063973
0.132719,-0.132719
0.178917,-0.178917
0.116807,-0.116807
0.0416517,-0.0416517
0.0549589,-0.0549589
0.0573563,-0.0573563
-0.0084306,0.0084306
-0.00472479,0.00472479
0.025364,-0.025364
0.0142948,-0.0142948
0.0533024,-0.0533024
0.00119186,-0.00119186
-0.0679182,0.0679182
-0.0629377,0.0629377
-0.0820642,0.0820642
-0.145884,0.145884
-0.19045,0.19045
0.0136275,-0.0136275
0.113447,-0.113447
0.0749705,-0.0749705
-0.00128573,0.00128573
-0.0053459,0.0053459
0.0570312,-0.0570312
0.0578898,-0.0578898
0.00108649,-0.00108649
0.012183,-0.012183
0.0282391,-0.0282391
-0.0227169,0.0227169
-0.0566489,0.0566489
-0.03544,0.03544
-0.0465776,0.0465776
-0.0496933,0.0496933
-0.00388269,0.00388269
-0.0765858,0.0765858
-0.075685,0.075685
-0.145655,0.145655
-0.220689,0.220689
-0.198078,0.198078
-0.000298864,0.000298864
0.0795195,-0.0795195
0.0264959,-0.0264959
-0.0332777,0.0332777
-0.0244932,0.0244932
0.0413133,-0.0413133
0.0463521,-0.0463521
0.0269,-0.0269
0.0630409,-0.0630409
0.0626129,-0.0626129
-0.00507238,0.00507238
-0.0322695,0.0322695
-0.0239778,0.0239778
-0.0367018,0.0367018
-0.0321489,0.0321489
-0.00610847,0.00610847
-0.0417338,0.0417338
-0.0356942,0.0356942
-0.155308,0.155308
-0.214902,0.214902
-0.0990584,0.0990584
0.0895937,-0.0895937
0.0775356,-0.0775356
0.00750784,-0.00750784
-0.0365917,0.0365917
0.0172373,-0.0172373
0.0588212,-0.0588212
0.0422904,-0.0422904
0.0643709,-0.0643709
0.0803124,-0.0803124
0.0248277,-0.0248277
-0.0342624,0.0342624
-0.0368196,0.0368196
-0.0407199,0.0407199
-0.028791,0.028791
0.0508837,-0.0508837
0.00452699,-0.00452699
0.0200436,-0.0200436
-0.0776595,0.0776595
-0.142984,0.142984
-0.0816545,0.0816545
0.0937436,-0.0937436
0.0934176,-0.0934176
0.0267821,-0.0267821
-0.0215336,0.0215336
0.0159886,-0.0159886
0.0365253,-0.0365253
0.0157792,-0.0157792
0.0369297,-0.0369297
0.0458865,-0.0458865
-0.0160616,0.0160616
-0.0638413,0.0638413
-0.0667474,0.0667474
-0.0667571,0.0667571
-0.0387507,0.0387507
0.0857316,-0.0857316
0.088855,-0.088855
0.0115166,-0.0115166
-0.0252048,0.0252048
-0.110831,0.110831
-0.0591181,0.0591181
0.0170838,-0.0170838
-0.0279708,0.0279708
-0.0704081,0.0704081
-0.0713253,0.0713253
-0.0489264,0.0489264
-0.0726973,0.0726973
-0.104393,0.104393
-0.0862119,0.0862119
-0.122798,0.122798
-0.172529,0.172529
-0.177759,0.177759
-0.145984,0.145984
-0.139036,0.139036
-0.0576995,0.0576995
0.0750391,-0.0750391
0.0166111,-0.0166111
0.0165404,-0.0165404
-0.0968776,0.0968776
-0.0632128,0.0632128
-0.00502021,0.00502021
-0.026272,0.026272
-0.0537639,0.0537639
-0.0482426,0.0482426
-0.0229582,0.0229582
-0.0610181,0.0610181
-0.142212,0.142212
-0.178783,0.178783
-0.232093,0.232093
-0.269839,0.269839
-0.237783,0.237783
-0.154135,0.154135
-0.129984,0.129984
-0.0725039,0.0725039
-0.0156415,0.0156415
-0.0564893,0.0564893
-0.0667229,0.0667229
-0.0158839,0.0158839
0.0503508,-0.0503508
0.0118958,-0.0118958
-0.0292466,0.0292466
-0.0586303,0.0586303
-0.010631,0.010631
0.00717615,-0.00717615
-0.0687853,0.0687853
-0.180995,0.180995
-0.247432,0.247432
-0.302709,0.302709
-0.281631,0.281631
-0.173935,0.173935
-0.0859898,0.0859898
-0.0868068,0.0868068
-0.0108295,0.0108295
-0.0581593,0.0581593
-0.0279095,0.0279095
0.0603644,-0.0603644
0.0461485,-0.0461485
-0.0326718,0.0326718
-0.0966452,0.0966452
-0.148404,0.148404
-0.10262,0.10262
-0.0795306,0.0795306
-0.159443,0.159443
-0.285635,0.285635
-0.351748,0.351748
-0.393408,0.393408
-0.360848,0.360848
-0.239337,0.239337
-0.145696,0.145696
-0.139693,0.139693
-0.0455203,0.0455203
0.0174477,-0.0174477
0.074104,-0.074104
0.0439576,-0.0439576
-0.0672246,0.0672246
-0.119897,0.119897
-0.173834,0.173834
-0.194856,0.194856
-0.158133,0.158133
-0.196963,0.196963
-0.324162,0.324162
-0.403801,0.403801
-0.426744,0.426744
-0.431014,0.431014
-0.369447,0.369447
-0.259607,0.259607
-0.200717,0.200717
-0.153893,0.153893
0.0383173,-0.0383173
0.0915219,-0.0915219
0.0256496,-0.0256496
-0.128968,0.128968
-0.173222,0.173222
-0.242623,0.242623
-0.248798,0.248798
-0.219619,0.219619
-0.26296,0.26296
-0.375635,0.375635
-0.418017,0.418017
-0.417448,0.417448
-0.413876,0.413876
-0.385598,0.385598
-0.3113,0.3113
-0.251454,0.251454
-0.199529,0.199529
0.0176257,-0.0176257
0.00335245,-0.00335245
-0.095408,0.095408
-0.158949,0.158949
-0.23023,0.23023
-0.260348,0.260348
-0.22115,0.22115
-0.226292,0.226292
-0.29159,0.29159
-0.328161,0.328161
-0.318432,0.318432
-0.326927,0.326927
-0.340446,0.340446
-0.314413,0.314413
-0.278472,0.278472
-0.251475,0.251475
-0.177771,0.177771
-0.0829009,0.0829009
-0.166459,0.166459
-0.198132,0.198132
-0.274952,0.274952
-0.265775,0.265775
-0.209932,0.209932
-0.194843,0.194843
-0.20495,0.20495
-0.190691,0.190691
-0.191907,0.191907
-0.22171,0.22171
-0.249343,0.249343
-0.263996,0.263996
-0.26814,0.26814
-0.221103,0.221103
-0.126556,0.126556
-0.158588,0.158588
-0.23762,0.23762
-0.248461,0.248461
-0.292431,0.292431
-0.234502,0.234502
-0.200019,0.200019
-0.166469,0.166469
-0.13287,0.13287
-0.102639,0.102639
-0.124413,0.124413
-0.165711,0.165711
-0.199971,0.199971
-0.24572,0.24572
-0.220777,0.220777
-0.131216,0.131216
-0.0940149,0.0940149
-0.209004,0.209004
-0.228609,0.228609
-0.277119,0.277119
-0.234299,0.234299
-0.209774,0.209774
-0.172939,0.172939
-0.126106,0.126106
-0.0964761,0.0964761
-0.114651,0.114651
-0.134991,0.134991
-0.1672,0.1672
-0.209352,0.209352
-0.164706,0.164706
-0.0735041,0.0735041
-0.0665474,0.0665474
-0.104243,0.104243
-0.155058,0.155058
-0.181539,0.181539
-0.125409,0.125409
-0.0983624,0.0983624
-0.0745546,0.0745546
-0.0389683,0.0389683
-0.0698,0.0698
-0.0785449,0.0785449
-0.0915754,0.0915754
-0.100842,0.100842
-0.0781532,0.0781532
0.0106637,-0.0106637
0.127916,-0.127916
-0.0316615,0.0316615
-0.060571,0.060571
-0.109609,0.109609
-0.0439055,0.0439055
-0.0108603,0.0108603
0.00393248,-0.00393248
-0.00794011,0.00794011
-0.0778951,0.0778951
-0.0966384,0.0966384
-0.119546,0.119546
-0.108512,0.108512
-0.047176,0.047176
0.0421979,-0.0421979
0.158689,-0.158689
0.0221336,-0.0221336
-0.0207103,0.0207103
0.00755961,-0.00755961
0.0626666,-0.0626666
0.0893098,-0.0893098
0.0413096,-0.0413096
-0.0438172,0.0438172
-0.0928254,0.0928254
-0.0932033,0.0932033
-0.114033,0.114033
-0.0779232,0.0779232
0.0503645,-0.0503645
0.130997,-0.130997
0.0310363,-0.0310363
0.0181853,-0.0181853
0.0652369,-0.0652369
0.132023,-0.132023
0.145342,-0.145342
0.0578311,-0.0578311
-0.0438525,0.0438525
-0.0825622,0.0825622
-0.0653696,0.0653696
-0.0795922,0.0795922
-0.0434344,0.0434344
0.0951079,-0.0951079
0.176147,-0.176147
0.0220829,-0.0220829
0.0122763,-0.0122763
0.104752,-0.104752
0.128388,-0.128388
0.0870991,-0.0870991
-0.0330014,0.0330014
-0.105426,0.105426
-0.0619553,0.0619553
-0.0491266,0.0491266
-0.0429185,0.0429185
0.0440314,-0.0440314
0.15951,-0.15951
0.215284,-0.215284
-0.000450509,0.000450509
0.080736,-0.080736
0.097553,-0.097553
0.0490416,-0.0490416
-0.0842787,0.0842787
-0.147303,0.147303
-0.075325,0.075325
-0.0441144,0.0441144
-0.0315239,0.0315239
0.065282,-0.065282
0.184405,-0.184405
0.219977,-0.219977
0.0406355,-0.0406355
0.0863784,-0.0863784
0.079124,-0.079124
-0.0606925,0.0606925
-0.18433,0.18433
-0.163142,0.163142
-0.0592004,0.0592004
-0.0533657,0.0533657
0.0130854,-0.0130854
0.17562,-0.17562
0.259934,-0.259934
0.0258191,-0.0258191
0.0639752,-0.0639752
0.0532055,-0.0532055
-0.0930471,0.0930471
-0.225751,0.225751
-0.191463,0.191463
-0.0707186,0.0707186
-0.0593755,0.0593755
0.0201255,-0.0201255
0.174266,-0.174266
0.240714,-0.240714
0.0222159,-0.0222159
0.0313784,-0.0313784
-0.0253023,0.0253023
-0.172891,0.172891
-0.217365,0.217365
-0.0979595,0.0979595
-0.0330044,0.0330044
-0.00309152,0.00309152
0.102306,-0.102306
0.164893,-0.164893
0.185971,-0.185971
0.0104311,-0.0104311
-0.0403186,0.0403186
-0.167114,0.167114
-0.20411,0.20411
-0.0860177,0.0860177
-0.028312,0.028312
-0.00957423,0.00957423
0.0803032,-0.0803032
0.131304,-0.131304
0.154533,-0.154533
-0.0170654,0.0170654
-0.112879,0.112879
-0.213185,0.213185
-0.162737,0.162737
-0.0444756,0.0444756
-0.0463746,0.0463746
-0.00797858,0.00797858
0.110779,-0.110779
0.140972,-0.140972
-0.0147083,0.0147083
-0.104827,0.104827
-0.208615,0.208615
-0.162459,0.162459
-0.0419764,0.0419764
-0.0406633,0.0406633
0.00410336,-0.00410336
0.115131,-0.115131
0.138127,-0.138127
-0.0285356,0.0285356
-0.150596,0.150596
-0.207909,0.207909
-0.0923656,0.0923656
-0.0187152,0.0187152
0.0199116,-0.0199116
0.109881,-0.109881
0.122232,-0.122232
0.169991,-0.169991
-0.136312,0.136312
-0.211503,0.211503
-0.0952578,0.0952578
0.00737572,-0.00737572
0.0850306,-0.0850306
0.201308,-0.201308
0.190844,-0.190844
0.225521,-0.225521
-0.139747,0.139747
-0.137458,0.137458
0.0185542,-0.0185542
0.0904176,-0.0904176
0.226676,-0.226676
0.321969,-0.321969
0.266892,-0.266892
-0.0699853,0.0699853
-0.0878102,0.0878102
0.0552976,-0.0552976
0.133896,-0.133896
0.28262,-0.28262
0.396202,-0.396202
0.320653,-0.320653
-0.0392092,0.0392092
0.0231729,-0.0231729
0.121629,-0.121629
0.234316,-0.234316
0.412775,-0.412775
0.410878,-0.410878
0.398592,-0.398592
0.0461512,-0.0461512
0.12893,-0.12893
0.222902,-0.222902
0.400097,-0.400097
0.418745,-0.418745
0.412385,-0.412385
0.0933063,-0.0933063
0.1373,-0.1373
0.251757,-0.251757
0.405039,-0.405039
0.359582,-0.359582
0.0587464,-0.0587464
0.0985929,-0.0985929
0.197923,-0.197923
0.334929,-0.334929
0.302005,-0.302005
0.0246992,-0.0246992
0.0966396,-0.0966396
0.231741,-0.231741
0.258766,-0.258766
0.304635,-0.304635
0.0781902,-0.0781902
0.210995,-0.210995
0.232431,-0.232431
0.269546,-0.269546
0.119224,-0.119224
0.232276,-0.232276
0.187925,-0.187925
0.0632165,-0.0632165
0.196424,-0.196424
0.158668,-0.158668
0.089227,-0.089227
0.157655,-0.157655
0.16377,-0.16377
0.0937284,-0.0937284
0.124922,-0.124922
0.0678147,-0.0678147
0.0518605,-0.0518605
0.103375,-0.103375