File: results/rsa/mean_partial_tga_diffs.csv
dorsal_ventral,ventral_dorsal
-0.023065,0.0101944
0.0204437,-0.042207
-0.0596999,0.0499629
-0.132931,0.125896
0.0383359,-0.0292234
0.0369363,-0.00321877
0.104671,-0.0496763
0.107449,-0.0327331
0.0651674,-0.0621896
0.0174015,-0.0381272
-0.0990506,0.0667569
-0.13353,0.108897
-0.181744,0.170678
-0.0343015,0.0123456
0.0359725,-0.0796494
0.0896325,-0.104224
0.147716,-0.11535
0.116779,-0.131286
0.019835,-0.0406862
-0.00240958,-0.0173644
0.0939071,-0.110499
0.0475084,-0.0729676
-0.00237747,-0.0264067
-0.0183507,-0.0079794
0.00522413,0.00208761
-0.0176626,0.027113
-0.0611518,0.0537561
-0.090725,0.0967183
-0.0933786,0.111908
-0.143231,0.145409
-0.245287,0.200908
-0.214311,0.216908
-0.172629,0.169841
-0.188674,0.19039
-0.257287,0.262242
-0.39216,0.391765
-0.261272,0.258899
0.0805885,-0.0938664
-0.0122873,0.0124725
-0.0818474,0.0761351
0.0977439,-0.100692
0.164513,-0.147808
0.116851,-0.0888405
0.0748027,-0.0204681
-0.00520473,0.00737047
-0.0029919,-0.0176887
-0.0807594,0.0450665
-0.119751,0.113349
-0.118747,0.138183
-0.0299091,0.0423522
0.0796189,-0.0601113
0.120065,-0.0962782
0.122541,-0.0756131
0.0528869,-0.0458839
-0.0110632,0.00703111
-0.00634964,0.00483783
0.115,-0.127364
0.0566589,-0.0742533
-0.0426041,0.0339821
-0.0871313,0.0816322
-0.111813,0.117444
-0.0971916,0.102655
-0.107498,0.101402
-0.134861,0.133654
-0.206014,0.198696
-0.224777,0.224409
-0.292937,0.26909
-0.261749,0.273133
-0.188092,0.195129
-0.215151,0.204116
-0.225718,0.214706
-0.320001,0.311287
-0.120201,0.124539
0.0578302,-0.0655619
0.0148916,-0.0119011
0.0559724,-0.0569039
0.247722,-0.241564
0.202266,-0.197262
0.118038,-0.111378
-0.0662296,0.092088
-0.0141642,0.00193022
-0.0129666,0.00330576
-0.0927301,0.0540766
-0.058387,0.0994268
-0.0544925,0.0885087
-0.000147796,0.0430635
0.102356,-0.0705788
0.101817,-0.0855183
0.071774,-0.0473683
0.0522182,-0.0503655
0.0500049,-0.0514252
0.127236,-0.124046
0.163951,-0.172711
0.0358306,-0.0497464
-0.0679167,0.0722427
-0.173018,0.176856
-0.19104,0.185869
-0.134127,0.137241
-0.143247,0.133158
-0.248535,0.238888
-0.27583,0.275219
-0.264797,0.258974
-0.302064,0.303903
-0.272261,0.279932
-0.273743,0.285957
-0.273817,0.264544
-0.295256,0.293958
-0.249699,0.253265
0.0483677,-0.0502976
0.10165,-0.090764
0.111271,-0.105341
0.224296,-0.217872
0.145642,-0.144
0.0784165,-0.0761829
-0.0699166,0.0920501
-0.027921,0.0161498
-0.00572546,0.00362597
-0.0584203,0.0202438
-0.00589023,0.0462533
-0.0376566,0.0792265
0.00749277,0.0513621
0.105625,-0.0667044
0.0863965,-0.0761126
0.0656466,-0.0476153
0.096172,-0.101956
0.122087,-0.131372
0.134458,-0.139676
0.132314,-0.138662
0.0311656,-0.0446505
-0.088802,0.0841468
-0.255023,0.235114
-0.279283,0.26468
-0.177483,0.177476
-0.148167,0.144034
-0.246952,0.236578
-0.242269,0.240781
-0.183714,0.176925
-0.229694,0.237847
-0.252518,0.261713
-0.274567,0.281411
-0.299028,0.289412
-0.324142,0.314778
-0.233568,0.247332
0.0402297,-0.0310937
0.118489,-0.0965534
0.132532,-0.128655
0.0612979,-0.0552651
0.0537405,-0.0661136
-0.0195045,0.0236106
-0.0409648,0.0360998
-0.0245756,0.0162821
-0.037951,0.028746
-0.015144,-0.00247577
-0.0148674,0.0531228
-0.0512425,0.101249
0.0592437,0.0171297
0.0710592,-0.0711333
0.0568957,-0.0597205
0.0871951,-0.0819149
0.135856,-0.155327
0.116074,-0.138459
0.0778673,-0.0976718
0.0414076,-0.0577076
-0.0388024,0.0347654
-0.16811,0.137537
-0.287052,0.260507
-0.247975,0.234045
-0.139373,0.143365
-0.122211,0.137289
-0.189183,0.191865
-0.11817,0.126247
-0.134236,0.109178
-0.181624,0.200265
-0.193371,0.204537
-0.280598,0.277879
-0.301906,0.292924
-0.31382,0.311857
-0.0859363,0.106912
0.0951296,-0.0886126
0.0793248,-0.0871448
-0.0270179,0.025946
0.0275251,-0.0518844
-0.0712532,0.0518142
-0.0730724,0.058925
-0.0344404,0.0306969
-0.0589394,0.0476679
-0.0295087,0.00767279
-0.024855,0.0376804
-0.00761766,0.043191
0.0994129,-0.0387281
0.0796724,-0.109585
0.0727287,-0.0929798
0.106815,-0.101576
0.144933,-0.152427
0.104555,-0.115741
0.0324277,-0.0368662
0.00928629,-0.00505875
-0.0322509,0.0542825
-0.173296,0.15515
-0.296308,0.28181
-0.283559,0.275451
-0.16313,0.177937
-0.108593,0.140499
-0.150381,0.156011
-0.107807,0.104648
-0.141662,0.0935052
-0.191533,0.196089
-0.188287,0.190984
-0.272778,0.269976
-0.308441,0.307234
-0.32878,0.355069
-0.136573,0.179232
0.0736656,-0.0820885
-0.00306451,0.000665958
-0.00188752,-0.000645557
-0.0584266,0.0174432
-0.197847,0.17891
0.0212337,-0.0463956
0.0177693,-0.0125972
-0.073931,0.00903153
-0.0465785,0.0438428
-0.017858,0.0220203
0.0860812,-0.0741642
0.0819439,-0.0795587
0.0815016,-0.118526
0.0811474,-0.094848
0.0925002,-0.100463
0.0957054,-0.11132
0.0318108,-0.0366823
-0.0132824,0.0137423
-0.0124235,0.0352513
-0.0887582,0.0946911
-0.238657,0.217752
-0.314426,0.306288
-0.244271,0.254916
-0.142907,0.170767
-0.130903,0.141724
-0.110318,0.118856
-0.0775261,0.0620364
-0.134908,0.120823
-0.178206,0.185819
-0.191811,0.19294
-0.185496,0.191079
-0.236434,0.245298
-0.181403,0.254973
0.0267687,-0.0353244
0.0210564,-0.0169326
0.0613127,-0.0578598
-0.0318941,-0.00919642
-0.174375,0.150038
0.0892121,-0.123417
0.108885,-0.108411
-0.0345383,-0.0379445
-0.0534133,0.0478143
0.0116978,-0.0134822
0.116142,-0.130171
0.0835848,-0.104599
0.105757,-0.148488
0.0783551,-0.094006
0.0542579,-0.0603784
0.0540046,-0.0668495
0.0289752,-0.0206505
0.004462,0.00504481
-0.0115591,0.0291327
-0.0465403,0.0639131
-0.130172,0.133832
-0.217556,0.218794
-0.181783,0.194939
-0.127537,0.154912
-0.116173,0.115161
-0.101164,0.108609
-0.0471693,0.0366028
-0.113528,0.0951209
-0.185668,0.187551
-0.13842,0.140779
-0.0629786,0.0667942
-0.11695,0.125577
-0.142407,0.202009
0.0321231,-0.018276
0.0727809,-0.0645158
0.0798212,-0.115161
-0.0462145,0.0404995
0.0186306,-0.0538889
0.205436,-0.21673
0.171404,-0.198712
0.0395032,-0.0694125
-0.0145643,0.0233359
0.0900359,-0.0917891
0.149683,-0.154037
0.156979,-0.203069
0.150406,-0.172404
0.0796858,-0.081303
0.0459835,-0.0510202
0.0564365,-0.0578551
0.0532261,-0.00882109
0.0236535,-0.0245493
-0.00184283,0.0189471
-0.0248876,0.0484239
-0.103756,0.106988
-0.151637,0.152381
-0.157176,0.155759
-0.141524,0.137975
-0.128203,0.123216
-0.0897057,0.0865939
-0.0898321,0.0553043
-0.19709,0.188645
-0.184155,0.187485
-0.0823754,0.0855804
-0.0777636,0.071366
-0.178765,0.194061
-0.135971,0.170094
0.0852741,-0.0859061
0.132033,-0.169898
0.0344898,-0.0282079
0.0678647,-0.0911067
0.266335,-0.266033
0.27448,-0.291467
0.120548,-0.131472
0.0247437,-0.00476257
0.0714352,-0.0807376
0.0943554,-0.10952
0.130945,-0.171759
0.140422,-0.156986
0.043724,-0.0457164
0.0139348,-0.0124115
0.0592577,-0.056131
0.0469606,-0.00448218
0.0101417,-0.0149113
-0.0159825,0.0236321
-0.0206351,0.044563
-0.0735285,0.0791724
-0.121669,0.115387
-0.141375,0.130864
-0.134345,0.121678
-0.10743,0.107463
-0.0759211,0.0721541
-0.0507593,0.0160517
-0.129363,0.125156
-0.13636,0.141884
-0.0642994,0.0675537
-0.0569598,0.0574884
-0.126539,0.141613
-0.1094,0.13822
0.166972,-0.172863
0.186349,-0.200618
0.0899898,-0.103435
0.234343,-0.240438
0.307015,-0.304055
0.224255,-0.238511
0.0949856,-0.0766377
0.0144465,-0.00961467
0.0129849,-0.0411622
0.0176335,-0.0357356
0.0702125,-0.0816471
0.0438495,-0.0500159
-0.0359692,0.0371726
0.00835598,-0.00408675
0.00351029,0.00762587
0.0154752,0.0160554
-0.0306196,0.031566
-0.0459348,0.053246
-0.0159696,0.0614322
-0.0882331,0.0795539
-0.0999541,0.0905234
-0.12695,0.109849
-0.109878,0.102438
-0.109694,0.110631
-0.0620033,0.0458149
-0.0732071,0.042902
-0.154846,0.152659
-0.134657,0.153092
-0.0901651,0.0905188
-0.0835126,0.0844739
-0.153244,0.188522
0.134951,-0.136925
0.235553,-0.243798
0.108636,-0.135453
0.231664,-0.230493
0.285295,-0.281109
0.219405,-0.218205
0.0964115,-0.0810682
-0.0205239,0.0218862
-0.0192856,0.0112364
0.0010459,-0.00376637
0.0412117,-0.0358544
0.0483241,-0.0382702
-0.00556475,0.00726577
0.0268631,-0.0217709
-0.0108389,0.0206824
0.00957012,0.0322201
-0.0221932,0.036071
-0.0472379,0.0678515
0.0077543,0.0590424
-0.070902,0.0622246
-0.0734826,0.0677412
-0.0897225,0.0740407
-0.0799045,0.0865665
-0.0941008,0.093092
-0.0780286,0.0587317
-0.0856271,0.0495873
-0.148545,0.150621
-0.137022,0.166135
-0.11629,0.118497
-0.106101,0.10553
-0.17153,0.199873
0.120602,-0.117833
0.130903,-0.166017
0.0477684,-0.0651024
0.192018,-0.182117
0.189834,-0.189819
0.0947217,-0.0945253
0.0299286,-0.0117985
0.051906,-0.0373926
0.0708536,-0.0458262
0.091253,-0.0741371
0.154623,-0.118612
0.122896,-0.120122
0.113124,-0.110633
0.0921603,-0.0892769
0.0640636,-0.0324288
0.0565757,-0.0285977
0.00561618,0.0316818
-0.0207062,0.0559727
-0.0354156,0.0436004
-0.117267,0.0992248
-0.0834839,0.079297
-0.0590352,0.0788549
-0.0353671,0.0460063
-0.0854989,0.0765445
-0.119417,0.0433603
-0.0947157,0.0750204
-0.140005,0.140464
-0.127424,0.124218
-0.137576,0.128213
-0.2009,0.204163
-0.158238,0.155788
0.0464048,-0.0918589
0.0142185,-0.0298145
0.126464,-0.116638
0.121413,-0.114407
0.054615,-0.0242784
-0.00678231,0.0676797
0.0507451,0.0198329
0.113318,-0.0389173
0.118824,-0.0678899
0.195395,-0.120857
0.195074,-0.18448
0.185294,-0.183315
0.139174,-0.146985
0.103675,-0.0881152
0.085129,-0.0536877
-0.0031111,0.034282
-0.0311371,0.0383997
-0.0374184,0.0234677
-0.127847,0.100795
-0.112887,0.118702
-0.0507624,0.0906125
-0.016839,0.0436351
-0.0660356,0.0684966
-0.116284,0.0290311
-0.0811102,0.046527
-0.139802,0.116586
-0.143304,0.126425
-0.12713,0.103727
-0.210191,0.20123
-0.153804,0.156375
-0.0440603,0.0123286
0.0872727,-0.0737452
0.108197,-0.0945985
0.0816927,-0.0464887
-0.0341164,0.123142
-0.107743,0.220711
0.0481217,0.0585691
0.102351,-0.0198935
0.188315,-0.0890817
0.254394,-0.185468
0.226898,-0.223172
0.158777,-0.18108
0.0894891,-0.100621
0.0707292,-0.0441821
-0.00841587,0.0115037
-0.103409,0.0837256
-0.0477191,0.052114
-0.110682,0.0796285
-0.155177,0.164242
-0.104043,0.131536
-0.0636655,0.111002
-0.094987,0.115864
-0.0968901,0.0869998
-0.107764,0.0251332
-0.152422,0.121679
-0.176169,0.164799
-0.14929,0.125752
-0.10688,0.0817862
-0.160371,0.1964
-0.000961229,-0.00408184
0.0660403,-0.0673468
0.0854613,-0.109003
0.0627568,-0.0671264
-0.0628451,0.125929
-0.140427,0.241717
-0.0310012,0.0919157
0.0536423,-0.029941
0.183187,-0.131155
0.278599,-0.229517
0.241454,-0.258776
0.196589,-0.221628
0.100771,-0.0908519
0.0350319,0.0162723
-0.0791861,0.0933057
-0.162228,0.15677
-0.107141,0.127623
-0.146779,0.133665
-0.174675,0.188768
-0.114686,0.133442
-0.103373,0.12687
-0.142652,0.153672
-0.0765713,0.0752855
-0.0714652,0.0170045
-0.112169,0.100775
-0.149951,0.162226
-0.158895,0.151416
-0.0781601,0.0621124
-0.0698757,0.0984519
0.0218844,-0.022451
0.00401772,-0.0467439
0.0168982,-0.0669088
0.0274572,0.00140982
-0.0316344,0.108645
-0.0714757,0.124115
-0.0597376,0.037697
0.0320454,-0.0291578
0.177081,-0.127559
0.143807,-0.132092
0.168209,-0.178598
0.143771,-0.148495
0.0559698,-0.0129446
-0.0140358,0.0688755
-0.1276,0.13078
-0.100588,0.129145
-0.131846,0.122698
-0.148648,0.137577
-0.11297,0.110606
-0.0221326,0.0369459
-0.0859691,0.083151
-0.00810539,0.0114844
-0.00324683,-0.0391351
0.0134017,-0.0140033
-0.0619625,0.0501477
-0.163854,0.157653
-0.184224,0.183023
-0.0350964,0.0465764
0.0731251,-0.0736573
0.00988982,-0.0240365
0.0417102,-0.0395897
0.0947268,-0.0321811
0.0708621,-0.0107017
-0.000981732,0.0322251
-0.0701872,0.0651806
-0.0535709,0.0830762
0.0275718,0.0225245
0.00655444,0.0514176
0.0700735,-0.0489325
0.107363,-0.107024
0.0977726,-0.0948439
0.034135,-0.023347
-0.0793727,0.0445001
-0.0835061,0.0804807
-0.101575,0.0755538
-0.0985331,0.0806224
-0.0495101,0.0267958
0.0548605,-0.0415419
0.043366,-0.0315604
0.106624,-0.0915992
0.115746,-0.112206
0.129651,-0.117284
0.0373318,-0.03318
-0.120936,0.112405
-0.162612,0.17132
0.0621397,-0.0395906
0.172691,-0.167799
0.101439,-0.0981687
0.126307,-0.0842211
0.164879,-0.128925
0.107844,-0.0746665
-0.0512571,0.00450474
-0.121636,0.131448
-0.106592,0.118429
-0.047086,0.126894
-0.0590527,0.088096
0.0541524,-0.0364218
0.0836721,-0.0795363
0.0733345,-0.0917273
0.010422,-0.0309321
0.00673976,-0.0334846
0.0244153,-0.0347923
0.0441782,-0.0540405
0.0273382,-0.0563533
0.117179,-0.137782
0.172018,-0.166832
0.208875,-0.199698
0.191776,-0.181142
0.194464,-0.190276
0.186985,-0.176286
0.066429,-0.0548862
-0.0600536,0.0677339
0.0187793,-0.00663726
0.186112,-0.1702
0.0781138,-0.0743601
0.161972,-0.129401
0.268682,-0.252497
0.174411,-0.16196
-0.0588236,0.00303203
-0.155763,0.137569
-0.137006,0.126616
-0.032122,0.0986882
-0.057406,0.0777183
0.0354751,-0.0263148
0.0615779,-0.063115
0.0179406,-0.0417177
0.015592,-0.0345129
0.0784122,-0.107626
0.0898374,-0.104601
0.113763,-0.102604
0.0854545,-0.106724
0.174534,-0.208689
0.25025,-0.268872
0.288751,-0.28106
0.210528,-0.206603
0.249447,-0.242052
0.268671,-0.254826
0.1348,-0.121885
0.00903878,-0.00173665
0.0381669,-0.025049
0.114281,-0.109724
0.0633609,-0.0551415
0.179963,-0.165044
0.243518,-0.245284
0.108633,-0.124016
-0.0581758,0.050448
-0.151449,0.125186
-0.0865716,0.0947805
-0.0349023,0.0625455
-0.0495965,0.0545698
0.0329466,-0.0314088
0.0418505,-0.0575309
0.000234678,-0.0111542
0.1106,-0.131726
0.109962,-0.143295
0.095133,-0.102256
0.0861613,-0.0824905
0.105835,-0.144918
0.211671,-0.24115
0.293219,-0.309347
0.234302,-0.233754
0.195404,-0.185298
0.262517,-0.253605
0.209462,-0.1888
0.102393,-0.110394
0.00889721,-0.00759901
0.0594673,-0.0585006
-0.0108827,0.00162067
0.0892095,-0.0798611
0.173542,-0.15431
0.12133,-0.0612986
-0.0299249,0.105575
-0.13831,0.171159
-0.137471,0.162697
-0.0875466,0.14872
-0.0930666,0.124544
0.00661144,0.0154262
0.0552331,-0.0544869
0.0382628,-0.0337396
0.132704,-0.148106
0.108952,-0.153651
0.0599357,-0.0851072
0.056732,-0.060792
0.0929646,-0.132054
0.180425,-0.213411
0.233563,-0.257643
0.175493,-0.189551
0.129911,-0.143745
0.166472,-0.184621
0.128839,-0.140591
0.0690169,-0.0967409
0.0254269,-0.0438044
0.0275178,-0.0482728
-0.0365096,0.00598215
0.121296,-0.14321
0.139574,-0.0876302
0.0363647,0.0598867
-0.0148849,0.165555
-0.135197,0.174384
-0.115272,0.188215
-0.131596,0.188372
-0.0433326,0.0936943
0.0777607,-0.0295849
0.090444,-0.0825878
0.123085,-0.121741
0.123558,-0.184933
0.0364296,-0.123104
-0.0150438,-0.0119173
-0.0167257,-0.0282965
0.0584897,-0.11634
0.0824645,-0.136074
0.0687055,-0.0985794
0.0268052,-0.0605281
0.0485498,-0.0925348
0.045053,-0.087324
0.00878422,-0.0365553
-0.0085,-0.0184361
-0.0286395,-0.0200337
-0.0408896,-0.0197096
0.0708769,-0.0925857
0.0753662,-0.0909715
-0.00362927,0.0364277
-0.0246042,0.117135
-0.137713,0.128911
-0.132112,0.147434
-0.121245,0.135516
-0.000888863,0.0321269
0.141324,-0.101997
0.144456,-0.155312
0.171858,-0.18927
0.143934,-0.209082
0.0392167,-0.109825
-0.0564939,0.0544918
-0.0884061,0.0663429
-0.0281755,-0.0121568
-0.0232066,-0.0143487
-0.0470382,0.0407445
-0.0636235,0.0667649
0.0124728,-0.00796899
0.0205774,-0.0187137
0.00740016,-0.00124262
-0.0197498,0.0115467
-0.0479804,0.0244183
-0.0911295,0.0523581
-0.000791794,-0.00974364
0.00675677,-0.0250768
-0.0394567,0.0620558
-0.087238,0.0892923
-0.111824,0.0634032
-0.0852074,0.0721004
-0.00794084,0.00934294
0.103411,-0.0981925
0.128762,-0.171796
0.136312,-0.178444
0.148758,-0.197279
0.0458625,-0.0901522
-0.0850155,0.0706906
-0.161211,0.186742
-0.15698,0.147828
-0.0763724,0.0838764
-0.0590341,0.0759431
-0.0979718,0.13744
-0.0784392,0.11717
0.000972781,0.0398488
0.00947208,0.0211641
-0.00479988,0.0181753
-0.0365011,0.0503843
-0.11742,0.147156
-0.17434,0.176341
0.0324718,-0.0543948
0.0210054,-0.026023
-0.00286921,0.00615744
-0.010125,-0.0314711
0.0145087,-0.0321532
0.086363,-0.0793361
0.143785,-0.141551
0.120902,-0.162302
0.144674,-0.181774
0.0939714,-0.121941
-0.0369791,0.0164848
-0.18229,0.178735
-0.258813,0.290974
-0.259882,0.278401
-0.171522,0.204401
-0.132791,0.163772
-0.135864,0.190062
-0.0965504,0.161351
-0.0160383,0.0711268
0.0158067,0.0259705
-0.0224291,0.0455236
-0.0767674,0.0997657
-0.167981,0.207004
-0.228783,0.239495
0.0462419,-0.0498988
0.0673389,-0.0660267
0.0248482,-0.040796
0.0208454,-0.0347209
0.0603315,-0.0576493
0.132259,-0.130262
0.168674,-0.180295
0.178127,-0.191132
0.157071,-0.16124
0.0360604,-0.0392942
-0.120406,0.0963976
-0.221488,0.261378
-0.27764,0.308287
-0.223781,0.262917
-0.172979,0.206984
-0.163959,0.201153
-0.135091,0.209605
-0.0457908,0.132057
-0.0201672,0.06732
0.0294689,-0.00572263
-0.0219439,0.0308361
-0.0798065,0.121797
-0.199466,0.206721
0.043264,-0.0383371
0.0984173,-0.0827708
0.0317143,-0.0480072
0.00806493,-0.0132608
0.036011,-0.053819
0.138669,-0.149912
0.237042,-0.238931
0.27299,-0.238684
0.169949,-0.163759
0.0371367,-0.0447532
-0.0900242,0.0595722
-0.196655,0.214292
-0.25408,0.258884
-0.229906,0.233426
-0.206698,0.204263
-0.1891,0.20019
-0.125119,0.19078
-0.0662,0.148829
-0.0811145,0.100733
0.0266489,-0.0440218
0.0100117,-0.0220394
-0.0365129,0.062575
-0.100502,0.0760995
0.0602116,-0.0495458
0.0717006,-0.0615695
0.016798,-0.0437684
-0.0179038,-0.0186119
0.059072,-0.0913998
0.201582,-0.235459
0.303198,-0.269202
0.270105,-0.239178
0.082145,-0.113012
0.0674066,-0.0622902
-0.0586764,0.0582445
-0.141992,0.136189
-0.181004,0.160934
-0.159507,0.127774
-0.171074,0.13856
-0.111546,0.131097
-0.0587563,0.133183
-0.113072,0.142481
-0.0705849,0.0546063
0.00798124,-0.0419767
0.0169586,-0.0171957
0.0208319,-0.0438574
0.108629,-0.132672
0.0244101,-0.0346817
-0.0214307,-0.0207376
-0.0729311,0.0399535
-0.0374077,-0.0130852
0.106174,-0.159861
0.23171,-0.209208
0.227698,-0.201593
0.107061,-0.101734
0.146538,-0.0753736
0.0623003,-0.010886
-0.0148055,0.0386486
-0.0737889,0.0793339
-0.0833341,0.0749087
-0.115963,0.109682
-0.0600221,0.100329
-0.0181054,0.106993
-0.0868529,0.127138
-0.0734191,0.0827115
0.020028,-0.0162954
0.0812074,-0.0329827
0.110766,-0.11824
0.172377,-0.213111
-0.0725917,0.02179
-0.132223,0.110473
-0.19195,0.168694
-0.0945317,0.0623633
0.0898243,-0.0638738
0.193558,-0.127749
0.167846,-0.136136
0.170712,-0.102886
0.165081,-0.107697
0.108684,-0.0787476
0.0415719,-0.04874
-0.00386552,-0.00568183
-0.0584787,0.0258502
-0.0680775,0.0523511
0.00150536,0.0608561
-0.0123166,0.100157
-0.0983937,0.130257
-0.0150254,0.024257
0.0724505,-0.046836
0.178416,-0.134091
0.18844,-0.236625
-0.0699878,0.0380263
-0.177431,0.170938
-0.253699,0.251134
-0.145361,0.163202
0.0542666,0.0054277
0.185164,-0.119386
0.171588,-0.159694
0.147309,-0.131353
0.155703,-0.161744
0.122043,-0.145278
0.078506,-0.12675
0.0321573,-0.0758072
-0.0453047,-0.0229269
-0.0527619,0.0170034
0.0193405,0.0427054
-0.00579422,0.10555
-0.11282,0.153331
-0.0284775,0.0388216
0.0684776,-0.0561391
0.203443,-0.170539
0.2544,-0.302549
-0.0558209,0.0685473
-0.205156,0.198119
-0.186333,0.188077
-0.0322573,0.0364338
0.145772,-0.126522
0.219562,-0.222085
0.133832,-0.174496
0.137039,-0.168383
0.170284,-0.201608
0.143534,-0.169335
0.113786,-0.129499
0.0368775,-0.0787449
-0.0419496,0.0156911
0.00275134,0.0247976
0.0243869,0.0767819
-0.103872,0.153675
-0.11086,0.130556
-0.00242962,0.00198015
0.0894294,-0.0746545
0.227257,-0.230794
0.354822,-0.361103
-0.150992,0.126648
-0.127986,0.102236
0.00993669,-0.0397316
0.181173,-0.192509
0.248978,-0.259893
0.149901,-0.178024
0.121975,-0.165567
0.176873,-0.209629
0.170662,-0.18025
0.160049,-0.151958
0.0727115,-0.0861902
-0.0275508,0.032046
0.0172786,0.0495818
0.0386017,0.112546
-0.0885099,0.186389
-0.0883051,0.152887
-0.00187586,0.0272589
0.0702685,-0.0360189
0.218639,-0.19818
0.340975,-0.340814
-0.109877,0.0874108
-0.0284039,0.0192954
0.123397,-0.120817
0.236681,-0.214417
0.222672,-0.199205
0.108232,-0.104693
0.151574,-0.180684
0.173822,-0.176929
0.194563,-0.184365
0.147576,-0.125268
0.0128572,-0.0264359
-0.0338161,0.034433
0.023996,0.0694937
-0.0266429,0.160567
-0.120943,0.207154
-0.0499622,0.11498
0.0171319,0.00500778
0.137844,-0.0939814
0.27027,-0.282049
-0.0477135,0.044941
-0.0286099,0.0328156
0.0971924,-0.0898099
0.211733,-0.198175
0.21669,-0.207567
0.104373,-0.0901282
0.159503,-0.176182
0.192503,-0.189918
0.222995,-0.215531
0.194198,-0.173252
0.0755129,-0.082421
0.000975668,-0.0123497
0.0301559,0.0135108
-0.0270162,0.091967
-0.147212,0.172235
-0.0860542,0.124942
-0.0011559,0.013289
0.106364,-0.0997732
0.204983,-0.231561
-0.0386238,0.0397379
-0.018909,0.0141557
0.120038,-0.108659
0.243056,-0.245116
0.169711,-0.141489
0.129035,-0.133493
0.233713,-0.223238
0.240326,-0.238128
0.272912,-0.257892
0.231085,-0.218184
0.112482,-0.104062
0.0496973,-0.0400911
0.036558,0.00841564
-0.0705508,0.0920713
-0.157515,0.183933
-0.0622576,0.0887591
0.0438012,-0.0400354
0.151346,-0.150653
0.146707,-0.161754
-0.0163262,0.0121954
0.106747,-0.089387
0.241283,-0.247143
0.182094,-0.143891
0.140433,-0.138618
0.240645,-0.230988
0.255412,-0.256098
0.303387,-0.279521
0.258127,-0.237725
0.134597,-0.125837
0.0475004,-0.0531747
0.0362106,-0.0253409
-0.039182,0.0527244
-0.130408,0.154251
-0.046885,0.0727424
0.067364,-0.0646618
0.154896,-0.149977
0.142301,-0.161766
0.0695715,-0.0615999
0.180363,-0.164362
0.221429,-0.215787
0.140334,-0.0898681
0.162511,-0.17391
0.197029,-0.215035
0.249517,-0.260752
0.26124,-0.236454
0.191134,-0.182835
0.065399,-0.0904791
0.0561459,-0.0744051
0.0286632,-0.030245
-0.0687135,0.071959
-0.0398801,0.0713928
0.0662964,-0.0691144
0.151727,-0.161009
0.147245,-0.161178
0.0540049,-0.0509514
0.162159,-0.145755
0.2097,-0.198859
0.124269,-0.0714867
0.127905,-0.131837
0.161286,-0.175003
0.2259,-0.221601
0.261076,-0.21718
0.202262,-0.18292
0.110103,-0.11587
0.12531,-0.12783
0.101309,-0.0991518
0.00351604,0.00564023
0.0330882,0.00248615
0.140332,-0.137568
0.227688,-0.229674
0.186575,-0.183141
0.0562835,-0.0432666
0.1705,-0.164377
0.132508,-0.0675557
0.0844738,-0.0659327
0.142932,-0.117592
0.162082,-0.151256
0.251856,-0.192857
0.238607,-0.194146
0.165153,-0.15416
0.145529,-0.13702
0.190548,-0.186861
0.131679,-0.114561
0.0569872,-0.0285772
0.130985,-0.100445
0.249164,-0.246282
0.288041,-0.276128
0.192561,-0.191363
0.109799,-0.118927
0.10789,-0.0581757
0.0866319,-0.0698395
0.152163,-0.10114
0.15134,-0.106147
0.207136,-0.117013
0.213599,-0.144932
0.169983,-0.144688
0.154564,-0.122446
0.224979,-0.191984
0.188817,-0.146418
0.118528,-0.077478
0.18727,-0.14965
0.320846,-0.310475
0.334461,-0.309601
0.171112,-0.140434
0.116736,-0.125515
0.0960067,-0.0839265
0.138701,-0.125424
0.173484,-0.168993
0.176094,-0.140854
0.188107,-0.126027
0.190475,-0.173897
0.147155,-0.137716
0.204946,-0.161461
0.25025,-0.202635
0.193922,-0.158006
0.189405,-0.152972
0.287263,-0.29037
0.422649,-0.405556
0.209344,-0.193915
0.0762773,-0.0711964
0.0839289,-0.0611815
0.156689,-0.137609
0.210932,-0.231982
0.195571,-0.197192
0.188218,-0.158923
0.199203,-0.205143
0.162145,-0.173087
0.216285,-0.185541
0.286646,-0.25345
0.267897,-0.253952
0.249582,-0.235749
0.332512,-0.349444
0.455551,-0.456882
0.236703,-0.246277
0.019992,0.011272
0.0476921,-0.0363931
0.177396,-0.182694
0.190505,-0.229023
0.165201,-0.175809
0.174483,-0.165341
0.183922,-0.200049
0.161869,-0.164603
0.265318,-0.238077
0.347734,-0.344913
0.331542,-0.340549
0.34552,-0.358075
0.41348,-0.434967
0.339194,-0.369725
0.182303,-0.162666
0.0347033,-0.0377491
0.147002,-0.175223
0.173711,-0.228941
0.130631,-0.178508
0.142844,-0.15272
0.163014,-0.171197
0.145256,-0.153899
0.257699,-0.256837
0.403178,-0.41876
0.413457,-0.42087
0.369047,-0.380197
0.36272,-0.384341
0.269027,-0.294679
0.140501,-0.111727
0.0962103,-0.0903312
0.173147,-0.212409
0.143702,-0.189
0.0902801,-0.131701
0.138833,-0.137594
0.154829,-0.158778
0.188645,-0.199571
0.367649,-0.395785
0.502578,-0.512984
0.421766,-0.41397
0.301372,-0.326302
0.300526,-0.305993
0.157102,-0.200664
0.0553097,-0.0557122
0.14706,-0.182072
0.111839,-0.159852
0.047849,-0.100979
0.117183,-0.117075
0.170943,-0.167035
0.211084,-0.224276
0.400096,-0.4353
0.544158,-0.569006
0.447351,-0.451658
0.263965,-0.289868
0.249915,-0.272857
0.151924,-0.221229
0.0614117,-0.0699241
0.120689,-0.140615
0.0327717,-0.076304
0.0387025,-0.0604494
0.149944,-0.120391
0.194891,-0.172951
0.321701,-0.310411
0.537616,-0.562018
0.582806,-0.582062
0.41437,-0.395671
0.240622,-0.233904
0.232184,-0.263627
0.0917733,-0.0779529
0.0767135,-0.0895403
0.00946403,-0.0422036
0.022408,-0.0396316
0.124901,-0.109223
0.168843,-0.153297
0.301702,-0.280631
0.538149,-0.546763
0.611519,-0.598556
0.442447,-0.42712
0.250479,-0.24581
0.25743,-0.281763
0.119157,-0.110265
0.00561464,-0.0299178
-0.0279658,0.00648101
0.0507188,-0.0481613
0.106287,-0.104909
0.151103,-0.151915
0.374434,-0.361529
0.563881,-0.559179
0.542088,-0.517524
0.286387,-0.284555
0.230869,-0.236051
0.248334,-0.306316
-0.0162812,-0.000555244
-0.0471985,0.0366912
0.0172489,-0.0121773
0.0621899,-0.0597894
0.0933743,-0.0930731
0.312208,-0.283712
0.489044,-0.481235
0.498539,-0.475725
0.24588,-0.243251
0.173985,-0.176963
0.222847,-0.271637
-0.0300371,0.0262181
-0.0390787,0.0447462
0.0337778,-0.0254891
0.0404226,-0.0442744
0.159704,-0.13117
0.353804,-0.341161
0.469104,-0.453799
0.341041,-0.337038
0.137319,-0.140276
0.147331,-0.170566
0.0922073,-0.101822
-0.0343805,0.0423316
0.0376433,-0.0315564
0.04804,-0.0591108
0.156169,-0.139162
0.315601,-0.320103
0.424751,-0.426078
0.312586,-0.325598
0.127276,-0.144044
0.129049,-0.150597
0.0725356,-0.0855039
0.00324158,-0.0027661
0.0781497,-0.0894019
0.103071,-0.123043
0.262352,-0.261491
0.360044,-0.39781
0.382488,-0.403822
0.204798,-0.244229
0.112181,-0.132945
0.184412,-0.221263
0.01477,-0.0136524
0.103256,-0.112569
0.148944,-0.155355
0.291477,-0.279997
0.361837,-0.398698
0.381782,-0.399522
0.223357,-0.250028
0.106713,-0.121601
0.186583,-0.220982
0.0560122,-0.061345
0.132896,-0.139982
0.244911,-0.20775
0.326326,-0.341386
0.387618,-0.407913
0.30604,-0.319449
0.131341,-0.142617
0.0819691,-0.10326
0.0525638,-0.0656679
0.0982952,-0.0992041
0.205288,-0.163481
0.292917,-0.29321
0.347499,-0.350094
0.243365,-0.2495
0.0687226,-0.070345
0.0158613,-0.0269791
0.00425073,-0.0115586
0.0733112,-0.0660057
0.179498,-0.150743
0.266251,-0.261165
0.218403,-0.209019
0.0489609,-0.0480959
-0.0836284,0.087257
0.0206493,-0.0324925
0.0273489,-0.0229708
0.0981648,-0.0794592
0.179916,-0.174626
0.115184,-0.110737
-0.0103809,0.0130188
-0.108638,0.112471
-0.0247478,0.0143352
0.0198545,-0.00290533
0.0688151,-0.069468
0.0700577,-0.0614576
-0.0266065,0.0179828
-0.0472594,0.0379226
-0.0623797,0.053875
-0.0895812,0.0643992
0.0101816,-0.0304456
-0.0210388,0.00673451
-0.0829423,0.0491443
-0.0538735,0.00764943
-0.0345887,-0.00302335
-0.0551345,0.000151131
-0.0162265,0.00747727
-0.0997553,0.0867016
-0.0804171,0.0447752
-0.060098,0.0233225
0.0417843,-0.0821778
-0.0182829,0.0175852
-0.114895,0.117585
-0.107043,0.0989863
-0.07221,0.0624556
0.0895397,-0.0989099
-0.049415,0.0504178
-0.144285,0.148973
-0.124039,0.123399
-0.00713213,0.0132137
0.150768,-0.158777
-0.136744,0.131557
-0.140378,0.132238
-0.0048235,0.00606461
0.178209,-0.190921
-0.0952612,0.0831757
-0.0985098,0.0995672
0.13683,-0.117307
-0.0222547,0.0235731
-0.053947,0.0685924
0.129107,-0.0966819
-0.0260585,0.0320752
0.0225803,-0.011473
0.090609,-0.077261
0.0421439,-0.0411921
0.0444418,-0.0407397
0.0808929,-0.0800969
0.0199578,-0.0271652
-0.0518098,0.0380537